slider_relation.response,slider_relation.rt,slider_blame_SA.response,slider_blame_SA.rt,slider_blame_OA.response,slider_blame_OA.rt,verb_stimulus,agency,mouse_feeling.clicked_name,mouse_feeling.time,mouse_action.clicked_name,mouse_action.time,trials.thisRepN,trials.thisTrialN,trials.thisN,trials.thisIndex,trials.ran,stimno_ADeSS,stimno_Zahn2007,participant,your name,your best friend,session,date,expName,psychopyVersion,OS,frameRate
5,3.3024,6,4.7462,1,8.1617,is apathetic towards,self,"[""guilt""]",4.907,"[""apologising""]",2.5925,0,0,0,1,1,2,123,"ID",Pip,Morgan,,2023-11-21_13h23.39.356,msat_sussex,2020.2.10,Win32,60
,,7,6.5368,1,10.4884,is careless towards,self,"[""guilt""]",4.1975,"[""apologising""]",5.5314,0,1,1,7,1,8,127,"ID",Pip,Morgan,,2023-11-21_13h23.39.356,msat_sussex,2020.2.10,Win32,60
,,4,15.2683,6,19.9787,is romantic towards,other,"[""shame""]",6.6296,"[""distance_friend""]",5.5597,0,2,2,52,1,53,275,"ID",Pip,Morgan,,2023-11-21_13h23.39.356,msat_sussex,2020.2.10,Win32,60
,,2,3.8554,4,6.6697,is deceitful towards,other,"[""anger_friend""]",8.8295,"[""distance_friend""]",3.7798,0,3,3,10,1,11,133,"ID",Pip,Morgan,,2023-11-21_13h23.39.356,msat_sussex,2020.2.10,Win32,60
,,4,3.7927,4,6.1009,is careless towards,other,"[""contempt_self""]",4.98,"[""hiding""]",2.8297,0,4,4,6,1,7,127,"ID",Pip,Morgan,,2023-11-21_13h23.39.356,msat_sussex,2020.2.10,Win32,60
,,6,3.0445,2,5.3581,is quarrelsome with,self,"[""guilt""]",5.9461,"[""apologising""]",2.3124,0,5,5,31,1,32,173,"ID",Pip,Morgan,,2023-11-21_13h23.39.356,msat_sussex,2020.2.10,Win32,60
,,2,2.968,5,4.9123,is ignorant towards,other,"[""anger_friend""]",5.8635,"[""distance_friend""]",4.6796,0,6,6,20,1,21,150,"ID",Pip,Morgan,,2023-11-21_13h23.39.356,msat_sussex,2020.2.10,Win32,60
,,7,3.4509,1,5.7478,is greedy towards,self,"[""contempt_self""]",3.715,"[""attack_self""]",5.548,0,7,7,17,1,18,147,"ID",Pip,Morgan,,2023-11-21_13h23.39.356,msat_sussex,2020.2.10,Win32,60
,,3,4.9108,3,6.6712,is touchy with,other,"[""no_feeling""]",7.0946,"[""apologising""]",4.1665,0,8,8,42,1,43,184,"ID",Pip,Morgan,,2023-11-21_13h23.39.356,msat_sussex,2020.2.10,Win32,60
,,2,3.586,4,6.1249,is selfish towards,other,"[""anger_friend""]",9.898,"[""apologising""]",6.0983,0,9,9,36,1,37,179,"ID",Pip,Morgan,,2023-11-21_13h23.39.356,msat_sussex,2020.2.10,Win32,60
,,5,6.1045,2,8.6314,is rebellious towards,self,"[""shame""]",3.0479,"[""apologising""]",8.1794,0,10,10,33,1,34,174,"ID",Pip,Morgan,,2023-11-21_13h23.39.356,msat_sussex,2020.2.10,Win32,60
,,5,4.1452,4,6.3374,is tough towards,other,"[""shame""]",8.1755,"[""hiding""]",3.6629,0,11,11,44,1,45,185,"ID",Pip,Morgan,,2023-11-21_13h23.39.356,msat_sussex,2020.2.10,Win32,60
,,7,3.704,3,6.5823,is tough towards,self,"[""guilt""]",6.3608,"[""apologising""]",3.4297,0,12,12,45,1,46,185,"ID",Pip,Morgan,,2023-11-21_13h23.39.356,msat_sussex,2020.2.10,Win32,60
,,3,3.9525,3,5.6702,is quarrelsome with,other,"[""no_feeling""]",8.4781,"[""apologising""]",3.2295,0,13,13,30,1,31,173,"ID",Pip,Morgan,,2023-11-21_13h23.39.356,msat_sussex,2020.2.10,Win32,60
,,3,3.6815,4,6.0032,is disagreeable towards,other,"[""no_feeling""]",38.374,"[""distance_friend""]",7.3656,0,14,14,12,1,13,136,"ID",Pip,Morgan,,2023-11-21_13h23.39.356,msat_sussex,2020.2.10,Win32,60
,,7,3.1017,1,7.3035,is possessive towards,self,"[""shame""]",4.2453,"[""attack_self""]",3.7798,0,15,15,27,1,28,170,"ID",Pip,Morgan,,2023-11-21_13h23.39.356,msat_sussex,2020.2.10,Win32,60
,,4,4.1825,4,5.4382,is rebellious towards,other,"[""guilt""]",6.665,"[""apologising""]",3.265,0,16,16,32,1,33,174,"ID",Pip,Morgan,,2023-11-21_13h23.39.356,msat_sussex,2020.2.10,Win32,60
,,7,11.9858,1,8.2761,is rough towards,self,"[""guilt""]",4.4959,"[""apologising""]",3.6633,0,17,17,35,1,36,177,"ID",Pip,Morgan,,2023-11-21_13h23.39.356,msat_sussex,2020.2.10,Win32,60
,,5,3.1592,2,5.3383,is temperamental with,self,"[""shame""]",5.5817,"[""hiding""]",7.0807,0,18,18,41,1,42,182,"ID",Pip,Morgan,,2023-11-21_13h23.39.356,msat_sussex,2020.2.10,Win32,60
,,5,3.5617,4,6.5231,is temperamental with,other,"[""contempt_self""]",4.7658,"[""hiding""]",4.0779,0,19,19,40,1,41,182,"ID",Pip,Morgan,,2023-11-21_13h23.39.356,msat_sussex,2020.2.10,Win32,60
,,7,3.134,2,5.0221,is touchy with,self,"[""guilt""]",4.2627,"[""apologising""]",3.3141,0,20,20,43,1,44,184,"ID",Pip,Morgan,,2023-11-21_13h23.39.356,msat_sussex,2020.2.10,Win32,60
,,7,3.0556,1,7.1416,is dishonest with,self,"[""guilt""]",4.1653,"[""attack_self""]",6.2949,0,21,21,15,1,16,137,"ID",Pip,Morgan,,2023-11-21_13h23.39.356,msat_sussex,2020.2.10,Win32,60
,,2,3.4208,3,6.4878,is vain towards,other,"[""no_feeling""]",4.7532,"[""no_action""]",4.4429,0,22,22,46,1,47,201,"ID",Pip,Morgan,,2023-11-21_13h23.39.356,msat_sussex,2020.2.10,Win32,60
,,4,3.5551,4,7.5179,is dishonest with,other,"[""anger_friend""]",8.5085,"[""distance_friend""]",4.5293,0,23,23,14,1,15,137,"ID",Pip,Morgan,,2023-11-21_13h23.39.356,msat_sussex,2020.2.10,Win32,60
,,7,3.0313,2,5.4051,is disagreeable towards,self,"[""contempt_self""]",4.6966,"[""apologising""]",3.2983,0,24,24,13,1,14,136,"ID",Pip,Morgan,,2023-11-21_13h23.39.356,msat_sussex,2020.2.10,Win32,60
,,7,5.5242,1,9.1383,is romantic towards,self,"[""shame""]",2.866,"[""attack_self""]",3.5284,0,25,25,53,1,54,275,"ID",Pip,Morgan,,2023-11-21_13h23.39.356,msat_sussex,2020.2.10,Win32,60
,,2,10.6795,3,13.355,is bossy with,other,"[""no_feeling""]",3.0312,"[""no_action""]",3.2978,0,26,26,4,1,5,126,"ID",Pip,Morgan,,2023-11-21_13h23.39.356,msat_sussex,2020.2.10,Win32,60
,,7,5.1873,1,7.2064,is cruel towards,self,"[""shame"",""contempt_self"",""shame""]",7.4615,"[""attack_self""]",2.9485,0,27,27,9,1,10,131,"ID",Pip,Morgan,,2023-11-21_13h23.39.356,msat_sussex,2020.2.10,Win32,60
,,7,3.0049,1,4.5714,is ignorant towards,self,"[""contempt_self""]",3.3964,"[""attack_self""]",5.0131,0,28,28,21,1,22,150,"ID",Pip,Morgan,,2023-11-21_13h23.39.356,msat_sussex,2020.2.10,Win32,60
,,6,4.1912,1,10.5071,is selfish towards,self,"[""guilt""]",6.962,"[""apologising""]",5.347,0,29,29,37,1,38,179,"ID",Pip,Morgan,,2023-11-21_13h23.39.356,msat_sussex,2020.2.10,Win32,60
,,3,5.8668,5,8.0196,is jealous towards,other,"[""shame""]",3.7974,"[""distance_friend""]",4.4458,0,30,30,24,1,25,165,"ID",Pip,Morgan,,2023-11-21_13h23.39.356,msat_sussex,2020.2.10,Win32,60
,,7,5.1362,1,8.4402,is prejudiced towards,self,"[""contempt_self""]",3.4112,"[""attack_self""]",4.3986,0,31,31,29,1,30,171,"ID",Pip,Morgan,,2023-11-21_13h23.39.356,msat_sussex,2020.2.10,Win32,60
,,4,8.219,1,11.5513,is helpless towards,self,"[""shame""]",5.649,"[""hiding""]",4.9309,0,32,32,19,1,20,149,"ID",Pip,Morgan,,2023-11-21_13h23.39.356,msat_sussex,2020.2.10,Win32,60
,,1,4.0858,1,5.8968,is competitive with,other,"[""no_feeling""]",5.3116,"[""no_action""]",3.7651,0,33,33,48,1,49,217,"ID",Pip,Morgan,,2023-11-21_13h23.39.356,msat_sussex,2020.2.10,Win32,60
,,5,3.5519,6,6.1227,is cruel towards,other,"[""contempt_self""]",4.2962,"[""hiding""]",2.9642,0,34,34,8,1,9,131,"ID",Pip,Morgan,,2023-11-21_13h23.39.356,msat_sussex,2020.2.10,Win32,60
,,6,3.6766,1,5.6345,is vain towards,self,"[""shame""]",6.8644,"[""hiding""]",2.7465,0,35,35,47,1,48,201,"ID",Pip,Morgan,,2023-11-21_13h23.39.356,msat_sussex,2020.2.10,Win32,60
,,3,3.9744,1,6.7207,is competitive with,self,"[""shame""]",3.3832,"[""hiding""]",2.7636,0,36,36,49,1,50,217,"ID",Pip,Morgan,,2023-11-21_13h23.39.356,msat_sussex,2020.2.10,Win32,60
,,5,4.4275,4,6.6253,is impatient with,other,"[""shame""]",5.8628,"[""apologising""]",5.7321,0,37,37,22,1,23,153,"ID",Pip,Morgan,,2023-11-21_13h23.39.356,msat_sussex,2020.2.10,Win32,60
,,1,3.32,1,5.4567,is helpless towards,other,"[""no_feeling""]",4.8472,"[""apologising""]",5.6646,0,38,38,18,1,19,149,"ID",Pip,Morgan,,2023-11-21_13h23.39.356,msat_sussex,2020.2.10,Win32,60
,,3,3.8857,2,5.9199,is firm with,self,"[""no_feeling""]",4.2813,"[""no_action""]",2.7469,0,39,39,51,1,52,237,"ID",Pip,Morgan,,2023-11-21_13h23.39.356,msat_sussex,2020.2.10,Win32,60
,,7,2.6868,2,4.9549,is deceitful towards,self,"[""guilt""]",5.3969,"[""hiding""]",2.4804,0,40,40,11,1,12,133,"ID",Pip,Morgan,,2023-11-21_13h23.39.356,msat_sussex,2020.2.10,Win32,60
,,5,4.1957,3,6.4856,is firm with,other,"[""contempt_self""]",4.9134,"[""attack_self""]",4.3825,0,41,41,50,1,51,237,"ID",Pip,Morgan,,2023-11-21_13h23.39.356,msat_sussex,2020.2.10,Win32,60
,,4,16.5006,3,21.7134,is stingy towards,other,"[""no_feeling""]",3.7141,"[""no_action""]",5.6325,0,42,42,38,1,39,180,"ID",Pip,Morgan,,2023-11-21_13h23.39.356,msat_sussex,2020.2.10,Win32,60
,,6,2.9429,2,4.4953,is impatient with,self,"[""anger_self""]",5.1628,"[""apologising""]",7.6307,0,43,43,23,1,24,153,"ID",Pip,Morgan,,2023-11-21_13h23.39.356,msat_sussex,2020.2.10,Win32,60
,,7,6.07,1,9.2218,is bossy with,self,"[""shame""]",2.6151,"[""hiding""]",2.4805,0,44,44,5,1,6,126,"ID",Pip,Morgan,,2023-11-21_13h23.39.356,msat_sussex,2020.2.10,Win32,60
,,7,3.4949,1,5.245,is boastful towards,self,"[""shame""]",6.1818,"[""hiding""]",5.1461,0,45,45,3,1,4,125,"ID",Pip,Morgan,,2023-11-21_13h23.39.356,msat_sussex,2020.2.10,Win32,60
,,7,4.1565,3,6.2337,is apathetic towards,other,"[""contempt_self""]",5.0251,"[""attack_self""]",4.7286,0,46,46,0,1,1,123,"ID",Pip,Morgan,,2023-11-21_13h23.39.356,msat_sussex,2020.2.10,Win32,60
,,2,9.8034,2,11.5524,is greedy towards,other,"[""no_feeling""]",4.4476,"[""no_action""]",3.9458,0,47,47,16,1,17,147,"ID",Pip,Morgan,,2023-11-21_13h23.39.356,msat_sussex,2020.2.10,Win32,60
,,4,3.9051,6,5.8799,is prejudiced towards,other,"[""anger_friend""]",4.5143,"[""distance_friend""]",4.3305,0,48,48,28,1,29,171,"ID",Pip,Morgan,,2023-11-21_13h23.39.356,msat_sussex,2020.2.10,Win32,60
,,7,3.9856,1,7.0377,is stingy towards,self,"[""shame""]",3.9295,"[""attack_self""]",5.865,0,49,49,39,1,40,180,"ID",Pip,Morgan,,2023-11-21_13h23.39.356,msat_sussex,2020.2.10,Win32,60
,,5,4.0958,5,6.5313,is possessive towards,other,"[""shame""]",5.4982,"[""distance_friend""]",6.4649,0,50,50,26,1,27,170,"ID",Pip,Morgan,,2023-11-21_13h23.39.356,msat_sussex,2020.2.10,Win32,60
,,2,3.2059,2,5.2192,is boastful towards,other,"[""no_feeling""]",5.9158,"[""no_action""]",3.1793,0,51,51,2,1,3,125,"ID",Pip,Morgan,,2023-11-21_13h23.39.356,msat_sussex,2020.2.10,Win32,60
,,5,3.6014,5,6.0681,is rough towards,other,"[""anger_friend""]",22.7113,"[""distance_friend"",""hiding"",""distance_friend""]",10.163,0,52,52,34,1,35,177,"ID",Pip,Morgan,,2023-11-21_13h23.39.356,msat_sussex,2020.2.10,Win32,60
,,7,4.2542,1,8.9039,is jealous towards,self,"[""shame"",""contempt_self"",""shame""]",5.0303,"[""attack_self""]",3.4471,0,53,53,25,1,26,165,"ID",Pip,Morgan,,2023-11-21_13h23.39.356,msat_sussex,2020.2.10,Win32,60
